"Time (s)","Acceleration x (m/s^2)","Acceleration y (m/s^2)","Acceleration z (m/s^2)"
3.198469400E-2,4.970000088E-1,9.397999763E0,1.314000010E0
5.198469400E-2,5.159999728E-1,9.531999588E0,1.141999960E0
7.198469400E-2,4.589999914E-1,9.550999641E0,9.499999881E-1
9.198469400E-2,3.630000055E-1,9.435999870E0,8.730000257E-1
1.119846940E-1,4.009999931E-1,9.340000153E0,8.159999847E-1
1.319846940E-1,4.009999931E-1,9.397999763E0,7.779999971E-1
1.519846940E-1,4.399999976E-1,9.512000084E0,8.159999847E-1
1.719846940E-1,5.159999728E-1,9.550999641E0,8.539999723E-1
1.919846940E-1,6.119999886E-1,9.473999977E0,8.159999847E-1
2.119846940E-1,7.269999981E-1,9.454999924E0,6.629999876E-1
2.319846940E-1,6.499999762E-1,9.454999924E0,6.819999814E-1
2.519846940E-1,4.589999914E-1,9.454999924E0,6.439999938E-1
2.719846940E-1,3.630000055E-1,9.454999924E0,7.390000224E-1
2.919846940E-1,3.059999943E-1,9.473999977E0,7.969999909E-1
3.119846940E-1,2.290000021E-1,9.512000084E0,7.969999909E-1
3.319846940E-1,7.599999756E-2,9.531999588E0,7.590000033E-1
3.519846940E-1,7.599999756E-2,9.493000031E0,8.539999723E-1
3.719846940E-1,1.519999951E-1,9.493000031E0,7.969999909E-1
3.919846940E-1,1.909999996E-1,9.512000084E0,6.629999876E-1
4.119846940E-1,2.669999897E-1,9.607999802E0,6.819999814E-1
4.319846940E-1,3.059999943E-1,9.588999748E0,7.779999971E-1
4.519846940E-1,4.210000038E-1,9.569999695E0,7.009999752E-1
4.719846940E-1,7.269999981E-1,9.550999641E0,7.390000224E-1
4.919846940E-1,1.052000046E0,9.282999992E0,5.860000253E-1
5.119846940E-1,1.396999955E0,9.034000397E0,2.029999942E-1
5.319846940E-1,1.608000040E0,9.187000275E0,2.419999987E-1
5.519846940E-1,1.032999992E0,9.626999855E0,4.329999983E-1
5.719846940E-1,-7.599999756E-2,9.991000175E0,8.930000067E-1
5.919846940E-1,-8.230000138E-1,9.800000191E0,1.467000008E0
6.119846940E-1,-5.929999948E-1,9.378000259E0,1.582000017E0
6.319846940E-1,3.799999878E-2,9.340000153E0,1.562999964E0
6.519846940E-1,6.309999824E-1,9.493000031E0,1.294999957E0
6.719846940E-1,9.950000048E-1,9.493000031E0,9.309999943E-1
6.919846940E-1,1.281999946E0,9.340000153E0,7.969999909E-1
7.119846940E-1,1.473999977E0,9.244000435E0,6.819999814E-1
7.319846940E-1,1.626999974E0,9.282999992E0,8.159999847E-1
7.519846940E-1,1.684000015E0,9.302000046E0,1.006999969E0
7.719846940E-1,1.531000018E0,9.302000046E0,1.161000013E0
7.919846940E-1,1.511999965E0,9.168000221E0,1.409999967E0
8.119846940E-1,1.664999962E0,9.071999550E0,1.485999942E0
8.319846940E-1,1.741999984E0,9.168000221E0,1.351999998E0
8.519846940E-1,1.664999962E0,9.263999939E0,9.879999757E-1
8.719846940E-1,1.511999965E0,9.282999992E0,8.159999847E-1
8.919846940E-1,1.434999943E0,9.435999870E0,9.689999819E-1
9.119846940E-1,1.455000043E0,9.359000206E0,1.161000013E0
9.319846940E-1,1.493000031E0,9.225000381E0,1.046000004E0
9.519846940E-1,1.684000015E0,9.149000168E0,1.026999950E0
9.719846940E-1,1.894999981E0,9.206000328E0,8.349999785E-1
9.919846940E-1,2.144000053E0,9.397999763E0,7.009999752E-1
1.011984694E0,2.374000072E0,9.685000420E0,6.050000191E-1
1.031984694E0,2.546000004E0,9.876000404E0,5.479999781E-1
1.051984694E0,2.871999979E0,1.012500000E1,4.140000045E-1
1.071984694E0,3.140000105E0,1.041199970E1,3.370000124E-1
1.091984694E0,3.273999929E0,1.064200020E1,2.989999950E-1
1.111984694E0,3.273999929E0,1.060400009E1,4.140000045E-1
1.131984694E0,2.947999954E0,1.016399956E1,4.140000045E-1
1.151984694E0,2.469000101E0,1.073799992E1,5.289999843E-1
1.171984694E0,2.507999897E0,1.179100037E1,6.050000191E-1
1.191984694E0,1.511999965E0,1.117800045E1,2.419999987E-1
1.211984694E0,1.741999984E0,1.085299969E1,2.800000012E-1
1.231984694E0,1.187000036E0,9.704000473E0,-1.154999971E0
1.251984694E0,2.479999959E-1,7.866000175E0,-2.400000095E0
1.271984694E0,-1.894999981E0,6.353000164E0,-2.744999886E0
1.291984694E0,-3.696000099E0,6.218999863E0,-9.829999804E-1
1.311984694E0,-3.217000008E0,8.190999985E0,1.735000014E0
1.331984694E0,-1.243999958E0,1.025899982E1,3.075999975E0
1.351984694E0,1.894999981E0,1.230799961E1,2.634999990E0
1.371984694E0,2.622999907E0,1.250000000E1,7.390000224E-1
1.391984694E0,6.890000105E-1,1.068099976E1,-2.600000054E-2
1.411984694E0,-7.850000262E-1,8.861000061E0,2.800000012E-1
1.431984694E0,-1.167999983E0,8.133999825E0,5.669999719E-1
1.451984694E0,-4.779999852E-1,8.343999863E0,9.499999881E-1
1.471984694E0,5.929999948E-1,8.727000237E0,1.639000058E0
1.491984694E0,1.205999970E0,8.842000008E0,1.983999968E0
1.511984694E0,1.090999961E0,8.498000145E0,2.252000093E0
1.531984694E0,6.119999886E-1,8.152999878E0,2.309999943E0
1.551984694E0,3.059999943E-1,7.520999908E0,2.463000059E0
1.571984694E0,1.140000001E-1,7.387000084E0,2.385999918E0
1.591984694E0,-3.799999878E-2,7.328999996E0,2.463000059E0
1.611984694E0,1.519999951E-1,7.866000175E0,2.022000074E0
1.631984694E0,3.249999881E-1,9.206000328E0,8.539999723E-1
1.651984694E0,-8.610000014E-1,1.066100025E1,4.900000095E-1
1.671984694E0,-1.531999946E0,9.895000458E0,1.677999973E0
1.691984694E0,-1.646999955E0,9.838000298E0,1.715999961E0
1.711984694E0,-3.799999878E-2,1.135099983E1,2.539000034E0
1.731984694E0,2.813999891E0,1.177200031E1,3.650000095E0
1.751984694E0,4.480000019E0,1.129300022E1,3.516000032E0
1.771984694E0,3.618000031E0,1.037399960E1,3.420000076E0
1.791984694E0,1.455000043E0,9.760999680E0,4.185999870E0
1.811984694E0,-7.469999790E-1,8.880999565E0,4.512000084E0
1.831984694E0,-2.105999947E0,8.498000145E0,3.956000090E0
1.851984694E0,-1.781000018E0,1.138899994E1,3.344000101E0
1.871984694E0,-2.737999916E0,1.192500019E1,2.176000118E0
1.891984694E0,-2.431999922E0,1.188700008E1,-4.090000093E-1
1.911984694E0,-2.641999960E0,1.022099972E1,-5.429999828E-1
1.931984694E0,-1.398000002E0,6.104000092E0,-1.901999950E0
1.951984694E0,1.072000027E0,4.208000183E0,-2.400000095E0
1.971984694E0,3.618000031E0,5.567999840E0,-1.978999972E0
1.991984694E0,4.000999928E0,9.128999710E0,-1.537999988E0
2.011984694E0,9.179999828E-1,1.215499973E1,-7.149999738E-1
2.031984694E0,-3.236000061E0,1.253800011E1,3.950000107E-1
2.051984694E0,-4.557000160E0,1.092899990E1,1.141999960E0
2.071984694E0,-2.431999922E0,9.090999603E0,1.467000008E0
2.091984694E0,3.819999993E-1,8.267999649E0,1.046000004E0
2.111984694E0,2.144000053E0,7.598000050E0,4.519999921E-1
2.131984694E0,3.503999949E0,7.425000191E0,1.650000066E-1
2.151984694E0,2.967000008E0,7.655000210E0,3.950000107E-1
2.171984694E0,2.048000097E0,8.210000038E0,8.930000067E-1
2.191984694E0,1.684000015E0,8.746999741E0,9.879999757E-1
2.211984694E0,1.569000006E0,8.842000008E0,1.065000057E0
2.231984694E0,1.838000059E0,8.765999794E0,1.276000023E0
2.251984694E0,2.181999922E0,8.765999794E0,1.314000010E0
2.271984694E0,2.450000048E0,8.880999565E0,1.161000013E0
2.291984694E0,2.315999985E0,9.302000046E0,4.519999921E-1
2.311984694E0,1.723000050E0,1.010599995E1,-7.149999738E-1
2.331984694E0,8.610000014E-1,1.073799992E1,-6.769999862E-1
2.351984694E0,-2.680000067E-1,1.127400017E1,4.519999921E-1
2.371984694E0,3.799999878E-2,1.119799995E1,1.332999945E0
2.391984694E0,1.455000043E0,1.094900036E1,1.735000014E0
2.411984694E0,3.388999939E0,1.079500008E1,-4.659999907E-1
2.431984694E0,3.598999977E0,1.338099957E1,-1.400000006E-1
2.451984694E0,1.455000043E0,1.430000019E1,-1.599999964E-1
2.471984694E0,0.000000000E0,1.267199993E1,-7.919999957E-1
2.491984694E0,-4.210000038E-1,1.016399956E1,-3.243000031E0
2.511984694E0,-1.723000050E0,6.966000080E0,-4.027999878E0
2.531984694E0,-1.570000052E0,4.859000206E0,-2.898000002E0
2.551984694E0,-5.550000072E-1,6.506000042E0,-8.299999833E-1
2.571984694E0,1.588999987E0,9.340000153E0,2.989999950E-1
2.591984694E0,2.335000038E0,1.205900002E1,5.099999905E-1
2.611984694E0,1.263000011E0,1.318900013E1,3.759999871E-1
2.631984694E0,-4.589999914E-1,1.198299980E1,6.439999938E-1
2.651984694E0,-1.741999984E0,9.607999802E0,1.294999957E0
2.671984694E0,-1.608000040E0,7.022999763E0,1.256000042E0
2.691984694E0,-5.929999948E-1,5.797999859E0,1.161000013E0
2.711984694E0,4.009999931E-1,6.218999863E0,1.218000054E0
2.731984694E0,9.570000172E-1,7.290999889E0,1.236999989E0
2.751984694E0,8.040000200E-1,8.324999809E0,1.659000039E0
2.771984694E0,3.059999943E-1,8.861000061E0,2.079999924E0
2.791984694E0,-9.499999881E-2,8.842000008E0,2.270999908E0
2.811984694E0,-9.499999881E-2,8.765999794E0,2.137000084E0
2.831984694E0,3.059999943E-1,8.899999619E0,2.176000118E0
2.851984694E0,4.779999852E-1,9.263999939E0,2.194999933E0
2.871984694E0,7.649999857E-1,9.378000259E0,1.888000011E0
2.891984694E0,6.119999886E-1,9.666000366E0,1.600999951E0
2.911984694E0,1.340000033E0,9.800000191E0,3.325000048E0
2.931984694E0,9.380000234E-1,1.039299965E1,2.750000000E0
2.951984694E0,-4.210000038E-1,1.173400021E1,2.270999908E0
2.971984694E0,-2.029999971E0,1.200199986E1,4.933000088E0
2.991984694E0,9.380000234E-1,1.355300045E1,5.526999950E0
3.011984694E0,-1.072000027E0,1.422299957E1,4.129000187E0
3.031984694E0,-1.282999992E0,1.332299995E1,2.220000029E-1
3.051984694E0,-2.737999916E0,1.115900040E1,4.900000095E-1
3.071984694E0,-2.335999966E0,5.586999893E0,-6.400000304E-2
3.091984694E0,0.000000000E0,3.519000053E0,-8.489999771E-1
3.111984694E0,2.392999887E0,4.668000221E0,-1.786999941E0
3.131984694E0,3.312000036E0,8.114999771E0,-9.829999804E-1
3.151984694E0,2.086999893E0,1.075699997E1,5.860000253E-1
3.171984694E0,-5.929999948E-1,1.200199986E1,1.659000039E0
3.191984694E0,-2.719000101E0,1.087199974E1,1.888000011E0
3.211984694E0,-2.737999916E0,9.109999657E0,1.524000049E0
3.231984694E0,-9.190000296E-1,8.689000130E0,7.779999971E-1
3.251984694E0,8.040000200E-1,8.171999931E0,-8.299999684E-2
3.271984694E0,2.355000019E0,7.885000229E0,-4.850000143E-1
3.291984694E0,3.025000095E0,7.980999947E0,5.669999719E-1
3.311984694E0,2.698999882E0,7.922999859E0,1.582000017E0
3.331984694E0,2.374000072E0,7.922999859E0,2.213999987E0
3.351984694E0,2.604000092E0,8.000000000E0,2.194999933E0
3.371984694E0,3.140000105E0,7.960999966E0,1.792999983E0
3.391984694E0,3.542000055E0,8.057000160E0,1.409999967E0
3.411984694E0,3.388999939E0,8.267999649E0,1.083999991E0
3.431984694E0,2.717999935E0,8.708000183E0,6.819999814E-1
3.451984694E0,1.723000050E0,9.741999626E0,3.370000124E-1
3.471984694E0,4.399999976E-1,1.085299969E1,1.065000057E0
3.491984694E0,-3.249999881E-1,1.179100037E1,2.769000053E0
3.511984694E0,1.396999955E0,1.154199982E1,2.615999937E0
3.531984694E0,3.082000017E0,1.173400021E1,1.735000014E0
3.551984694E0,1.703999996E0,1.259500027E1,1.677999973E0
3.571984694E0,8.040000200E-1,1.454899979E1,2.042000055E0
3.591984694E0,9.179999828E-1,1.171500015E1,1.270000041E-1
3.611984694E0,3.249999881E-1,9.800000191E0,-1.251000047E0
3.631984694E0,-3.829999864E-1,8.000000000E0,-3.434000015E0
3.651984694E0,-1.205999970E0,6.774000168E0,-3.835999966E0
3.671984694E0,-1.090999961E0,6.985000134E0,-8.109999895E-1
3.691984694E0,-7.850000262E-1,8.383000374E0,8.349999785E-1
3.711984694E0,8.230000138E-1,1.071899986E1,1.830999970E0
3.731984694E0,1.779999971E0,1.207800007E1,1.179999948E0
3.751984694E0,1.838000059E0,1.230799961E1,6.050000191E-1
3.771984694E0,7.080000043E-1,9.876000404E0,6.819999814E-1
3.791984694E0,9.499999881E-2,7.328999996E0,7.200000286E-1
3.811984694E0,-1.529999971E-1,6.160999775E0,3.759999871E-1
3.831984694E0,-1.340000033E-1,6.774000168E0,6.240000129E-1
3.851984694E0,-5.740000010E-1,8.364000320E0,1.600999951E0
3.871984694E0,-1.129999995E0,8.574000359E0,1.945999980E0
3.891984694E0,-1.187000036E0,7.980999947E0,2.213999987E0
3.911984694E0,-5.360000134E-1,7.387000084E0,2.539000034E0
3.931984694E0,1.909999996E-1,7.387000084E0,3.095000029E0
3.951984694E0,5.350000262E-1,7.866000175E0,3.266999960E0
3.971984694E0,7.269999981E-1,8.861000061E0,3.171000004E0
3.991984694E0,6.690000296E-1,9.760999680E0,2.865000010E0
4.011984694E0,8.989999890E-1,1.014400005E1,1.927000046E0
4.031984694E0,1.838000059E0,1.045100021E1,2.921999931E0
4.051984694E0,7.839999795E-1,1.060400009E1,2.693000078E0
4.071984694E0,-1.302000046E0,1.177200031E1,1.812000036E0
4.091984694E0,-1.358999968E0,1.456799984E1,1.792999983E0
4.111984694E0,-2.891000032E0,1.590799999E1,2.730999947E0
4.131984694E0,-1.626999974E0,1.554399967E1,2.098999977E0
4.151984694E0,-2.871999979E0,1.192500019E1,2.419999987E-1
4.171984694E0,-2.507999897E0,5.548999786E0,3.370000124E-1
4.191984694E0,1.330000013E-1,2.062999964E0,-1.347000003E0
4.211984694E0,8.230000138E-1,3.882999897E0,-2.094000101E0
4.231984694E0,1.455000043E0,6.927000046E0,-7.530000210E-1
4.251984694E0,-2.300000042E-1,1.016399956E1,-8.299999684E-2
4.271984694E0,-2.948999882E0,1.232699966E1,1.199000001E0
4.291984694E0,-3.312999964E0,1.081499958E1,1.429000020E0
4.311984694E0,-4.020000100E-1,8.076000214E0,1.218000054E0
4.331984694E0,1.493000031E0,7.138000011E0,1.046000004E0
4.351984694E0,2.200999975E0,6.563000202E0,7.200000286E-1
4.371984694E0,1.511999965E0,7.060999870E0,3.370000124E-1
4.391984694E0,5.740000010E-1,8.267999649E0,8.799999952E-2
4.411984694E0,6.119999886E-1,9.435999870E0,5.860000253E-1
4.431984694E0,1.741999984E0,9.416999817E0,1.006999969E0
4.451984694E0,2.891000032E0,8.574000359E0,1.351999998E0
4.471984694E0,3.140000105E0,8.019000053E0,1.504999995E0
4.491984694E0,3.101000071E0,8.000000000E0,1.199000001E0
4.511984694E0,2.144000053E0,8.803999901E0,8.539999723E-1
4.531984694E0,1.052000046E0,9.647000313E0,1.121999979E0
4.551984694E0,0.000000000E0,9.953000069E0,1.409999967E0
4.571984694E0,-1.720000058E-1,1.022099972E1,6.439999938E-1
4.591984694E0,1.378000021E0,1.068099976E1,6.819999814E-1
4.611984694E0,4.155000210E0,1.047000027E1,1.582000017E0
4.631984694E0,5.591000080E0,1.127400017E1,-4.280000031E-1
4.651984694E0,4.155000210E0,1.462500000E1,8.930000067E-1
4.671984694E0,8.799999952E-1,1.546800041E1,1.927000046E0
4.691984694E0,-6.700000167E-1,1.292099953E1,-3.510000110E-1
4.711984694E0,-1.014999986E0,1.089099979E1,-2.611000061E0
4.731984694E0,-2.622999907E0,8.477999687E0,-4.181000233E0
4.751984694E0,-4.366000175E0,5.912000179E0,-2.898000002E0
4.771984694E0,-3.351000071E0,5.472000122E0,7.200000286E-1
4.791984694E0,-1.187000036E0,7.617000103E0,1.276000023E0
4.811984694E0,1.014000058E0,1.031700039E1,1.773000002E0
4.831984694E0,2.698999882E0,1.221199989E1,2.213999987E0
4.851984694E0,3.062999964E0,1.295899963E1,2.309999943E0
4.871984694E0,2.105999947E0,1.075699997E1,1.906999946E0
4.891984694E0,1.263000011E0,7.157000065E0,7.779999971E-1
4.911984694E0,3.819999993E-1,5.394999981E0,-2.360000014E-1
4.931984694E0,0.000000000E0,5.567999840E0,-1.599999964E-1
4.951984694E0,3.799999878E-2,7.215000153E0,1.467000008E0
4.971984694E0,-2.680000067E-1,8.343999863E0,2.194999933E0
4.991984694E0,-8.809999824E-1,8.555000305E0,2.404999971E0
5.011984694E0,-7.659999728E-1,8.019000053E0,2.367000103E0
5.031984694E0,-4.589999914E-1,7.598000050E0,2.596999884E0
5.051984694E0,-3.799999878E-2,7.731999874E0,2.884000063E0
5.071984694E0,1.330000013E-1,8.402000427E0,2.960999966E0
5.091984694E0,2.479999959E-1,8.899999619E0,2.730999947E0
5.111984694E0,3.440000117E-1,9.626999855E0,2.404999971E0
5.131984694E0,6.690000296E-1,1.048900032E1,2.903000116E0
5.151984694E0,1.281999946E0,1.144699955E1,3.266999960E0
5.171984694E0,-7.269999981E-1,1.158100033E1,3.994999886E0
5.191984694E0,-3.006000042E0,1.250000000E1,4.282000065E0
5.211984694E0,-7.080000043E-1,1.569799995E1,4.071000099E0
5.231984694E0,-1.378000021E0,1.728700066E1,4.204999924E0
5.251984694E0,-8.809999824E-1,1.608099937E1,4.709999859E-1
5.271984694E0,-2.546999931E0,1.238500023E1,4.140000045E-1
5.291984694E0,-2.852999926E0,5.300000191E0,-1.442999959E0
5.311984694E0,-1.914999962E0,2.848999977E0,-3.051000118E0
5.331984694E0,-2.489999980E-1,3.825000048E0,-2.706000090E0
5.351984694E0,1.128999949E0,6.199999809E0,-7.530000210E-1
5.371984694E0,3.059999943E-1,9.359000206E0,8.799999952E-2
5.391984694E0,-1.340000033E0,1.169499969E1,7.390000224E-1
5.411984694E0,-2.413000107E0,1.089099979E1,1.026999950E0
5.431984694E0,-1.684999943E0,8.822999954E0,1.429000020E0
5.451984694E0,-5.360000134E-1,7.941999912E0,1.429000020E0
5.471984694E0,3.059999943E-1,7.769999981E0,6.050000191E-1
5.491984694E0,3.819999993E-1,7.866000175E0,-3.889999986E-1
5.511984694E0,7.649999857E-1,8.420999527E0,-5.429999828E-1
5.531984694E0,1.817999959E0,8.899999619E0,3.560000062E-1
5.551984694E0,2.717999935E0,8.880999565E0,1.065000057E0
5.571984694E0,3.025000095E0,8.210000038E0,1.600999951E0
5.591984694E0,2.776000023E0,7.578000069E0,1.582000017E0
5.611984694E0,2.584000111E0,7.731999874E0,1.429000020E0
5.631984694E0,2.315999985E0,8.286999702E0,1.218000054E0
5.651984694E0,1.684000015E0,8.708000183E0,9.689999819E-1
5.671984694E0,1.187000036E0,9.225000381E0,6.050000191E-1
5.691984694E0,5.929999948E-1,9.876000404E0,6.240000129E-1
5.711984694E0,7.269999981E-1,1.083399963E1,1.753999949E0
5.731984694E0,2.450000048E0,1.045100021E1,2.137000084E0
5.751984694E0,4.557000160E0,1.025899982E1,1.103000045E0
5.771984694E0,4.403999805E0,1.114000034E1,-4.659999907E-1
5.791984694E0,3.963000059E0,1.458699989E1,8.539999723E-1
5.811984694E0,2.479999959E-1,1.632999992E1,-1.209999993E-1
5.831984694E0,-1.398000002E0,1.395499992E1,-2.939999998E-1
5.851984694E0,-1.513000011E0,1.096800041E1,-2.552999973E0
5.871984694E0,-2.565999985E0,7.846000195E0,-3.835999966E0
5.891984694E0,-2.622999907E0,5.414999962E0,-2.611000061E0
5.911984694E0,-1.435999990E0,5.855000019E0,-2.600000054E-2
5.931984694E0,7.459999919E-1,8.000000000E0,7.009999752E-1
5.951984694E0,2.296999931E0,1.023999977E1,1.620000005E0
5.971984694E0,2.910000086E0,1.228899956E1,1.026999950E0
5.991984694E0,2.048000097E0,1.181000042E1,1.371000051E0
6.011984694E0,9.570000172E-1,9.225000381E0,6.439999938E-1
6.031984694E0,5.159999728E-1,7.406000137E0,2.989999950E-1
6.051984694E0,5.700000003E-2,6.602000237E0,-1.209999993E-1
6.071984694E0,-1.720000058E-1,7.711999893E0,1.070000008E-1
6.091984694E0,-1.340000033E-1,8.727000237E0,6.629999876E-1
6.111984694E0,-5.740000010E-1,8.746999741E0,1.236999989E0
6.131984694E0,-4.589999914E-1,7.827000141E0,1.620000005E0
6.151984694E0,3.799999878E-2,7.176000118E0,2.118000031E0
6.171984694E0,1.720000058E-1,6.927000046E0,2.252000093E0
6.191984694E0,2.290000021E-1,7.368000031E0,2.654000044E0
6.211984694E0,2.099999934E-1,8.038000107E0,2.750000000E0
6.231984694E0,3.059999943E-1,8.651000023E0,2.463000059E0
6.251984694E0,1.909999996E-1,9.838000298E0,1.677999973E0
6.271984694E0,9.950000048E-1,1.117800045E1,2.252000093E0
6.291984694E0,6.890000105E-1,1.131200027E1,2.367000103E0
6.311984694E0,-8.809999824E-1,1.209799957E1,1.006999969E0
6.331984694E0,-1.282999992E0,1.397399998E1,-3.889999986E-1
6.351984694E0,-7.850000262E-1,1.922100067E1,3.707000017E0
6.371984694E0,-1.608000040E0,1.887599945E1,1.389999986E0
6.391984694E0,-4.231999874E0,1.272999954E1,1.046000004E0
6.411984694E0,-4.039999962E0,4.284999847E0,3.759999871E-1
6.431984694E0,-1.358999968E0,2.829999924E-1,-1.863999963E0
6.451984694E0,8.610000014E-1,2.963000059E0,-2.322999954E0
6.471984694E0,2.296999931E0,6.888999939E0,-2.549999952E-1
6.491984694E0,4.009999931E-1,1.054699993E1,-1.098000050E0
6.511984694E0,-3.140000105E0,1.251900005E1,6.439999938E-1
6.531984694E0,-4.117000103E0,1.035499954E1,1.677999973E0
6.551984694E0,-2.815000057E0,8.343999863E0,1.065000057E0
6.571984694E0,-2.300000042E-1,8.057000160E0,2.610000074E-1
6.591984694E0,6.119999886E-1,8.517000198E0,-1.021000028E0
6.611984694E0,7.459999919E-1,9.128999710E0,-7.919999957E-1
6.631984694E0,1.455000043E0,9.340000153E0,8.539999723E-1
6.651984694E0,1.626999974E0,8.994999886E0,1.812000036E0
6.671984694E0,1.608000040E0,8.593000412E0,2.385999918E0
6.691984694E0,1.588999987E0,7.903999805E0,2.270999908E0
6.711984694E0,1.894999981E0,7.578000069E0,1.927000046E0
6.731984694E0,2.009999990E0,8.019000053E0,1.467000008E0
6.751984694E0,1.531000018E0,8.517000198E0,1.447999954E0
6.771984694E0,9.760000110E-1,8.727000237E0,1.659000039E0
6.791984694E0,1.243999958E0,8.803999901E0,7.590000033E-1
6.811984694E0,1.684000015E0,9.454999924E0,-6.000000052E-3
6.831984694E0,2.163000107E0,9.953000069E0,1.179999948E0
6.851984694E0,2.469000101E0,9.972000122E0,1.965000033E0
6.871984694E0,1.519999951E-1,1.092899990E1,-8.489999771E-1
6.891984694E0,-7.469999790E-1,1.552499962E1,-6.579999924E-1
6.911984694E0,-2.910000086E0,1.703800011E1,2.500999928E0
6.931984694E0,-1.781000018E0,1.391699982E1,-1.710999966E0
6.951984694E0,-2.930000067E0,8.727000237E0,-3.453000069E0
6.971984694E0,-2.834000111E0,5.969999790E0,-7.340000272E-1
6.991984694E0,1.909999996E-1,7.578000069E0,1.544000030E0
7.011984694E0,3.982000113E0,9.741999626E0,3.459000111E0
7.031984694E0,5.399000168E0,9.666000366E0,2.213999987E0
7.051984694E0,3.561000109E0,1.023999977E1,2.252000093E0
7.071984694E0,6.119999886E-1,9.895000458E0,2.404999971E0
7.091984694E0,-1.531999946E0,9.015000343E0,2.098999977E0
7.111984694E0,-2.335999966E0,7.827000141E0,1.927000046E0
7.131984694E0,-2.489000082E0,6.755000114E0,1.830999970E0
7.151984694E0,-2.029999971E0,6.199999809E0,2.367000103E0
7.171984694E0,-1.435999990E0,6.448999882E0,2.788000107E0
7.191984694E0,-1.167999983E0,7.271999836E0,2.865000010E0
7.211984694E0,-8.040000200E-1,7.941999912E0,2.654000044E0
7.231984694E0,-3.440000117E-1,8.267999649E0,2.367000103E0
7.251984694E0,-2.680000067E-1,8.420999527E0,2.270999908E0
7.271984694E0,-4.399999976E-1,8.402000427E0,2.654000044E0
7.291984694E0,-6.129999757E-1,8.210000038E0,2.999000072E0
7.311984694E0,-6.510000229E-1,8.305999756E0,3.095000029E0
7.331984694E0,-4.399999976E-1,9.015000343E0,3.075999975E0
7.351984694E0,7.599999756E-2,1.035499954E1,3.286000013E0
7.371984694E0,1.187000036E0,1.160000038E1,4.052000046E0
7.391984694E0,1.072000027E0,1.257600021E1,3.516000032E0
7.411984694E0,-8.230000138E-1,1.288300037E1,3.075999975E0
7.431984694E0,-7.850000262E-1,1.355300045E1,2.194999933E0
7.451984694E0,-2.796000004E0,1.543000031E1,6.138999939E0
7.471984694E0,-1.225000024E0,1.458699989E1,1.314000010E0
7.491984694E0,-1.531999946E0,1.248099995E1,1.332999945E0
7.511984694E0,-2.700000048E0,6.869999886E0,-9.060000181E-1
7.531984694E0,-2.086999893E0,3.250999928E0,-3.069999933E0
7.551984694E0,-6.320000291E-1,3.002000093E0,-2.496000051E0
7.571984694E0,3.799999878E-2,6.181000233E0,-9.449999928E-1
7.591984694E0,-1.014999986E0,9.128999710E0,1.840000004E-1
7.611984694E0,-2.815000057E0,1.227000046E1,1.544000030E0
7.631984694E0,-2.776000023E0,1.196399975E1,1.006999969E0
7.651984694E0,-2.300000042E-1,9.493000031E0,3.099999949E-2
7.671984694E0,5.740000010E-1,8.612000465E0,-7.340000272E-1
7.691984694E0,6.690000296E-1,8.383000374E0,-1.327999949E0
7.711984694E0,7.649999857E-1,8.383000374E0,-8.870000243E-1
7.731984694E0,1.110000014E0,8.574000359E0,6.899999827E-2
7.751984694E0,1.320999980E0,8.765999794E0,9.120000005E-1
7.771984694E0,1.761000037E0,8.880999565E0,1.715999961E0
7.791984694E0,2.048000097E0,8.555000305E0,2.213999987E0
7.811984694E0,2.066999912E0,7.922999859E0,2.348000050E0
7.831984694E0,2.125000000E0,7.598000050E0,1.927000046E0
7.851984694E0,2.278000116E0,7.501999855E0,1.389999986E0
7.871984694E0,2.296999931E0,7.846000195E0,8.539999723E-1
7.891984694E0,1.838000059E0,8.727000237E0,9.120000005E-1
7.911984694E0,1.340000033E0,9.647000313E0,1.083999991E0
7.931984694E0,9.179999828E-1,9.895000458E0,9.309999943E-1
7.951984694E0,5.740000010E-1,1.056599998E1,6.240000129E-1
7.971984694E0,1.416000009E0,1.121700001E1,1.544000030E0
7.991984694E0,2.661000013E0,1.071899986E1,1.735000014E0
8.011984694E0,1.723000050E0,1.163799953E1,6.899999827E-2
8.031984694E0,9.380000234E-1,1.544900036E1,1.620000005E0
8.051984694E0,-1.899999939E-2,1.504699993E1,2.022000074E0
8.071984694E0,-1.529999971E-1,1.223200035E1,-8.489999771E-1
8.091984694E0,-6.510000229E-1,9.282999992E0,-3.740999937E0
8.111984694E0,-2.068000078E0,7.673999786E0,-4.813000202E0
8.131984694E0,-2.298000097E0,7.060999870E0,-2.170000076E0
8.151984694E0,-8.040000200E-1,8.019000053E0,4.709999859E-1
8.171984694E0,2.565000057E0,9.607999802E0,8.730000257E-1
8.191984694E0,3.676000118E0,1.108300018E1,3.950000107E-1
8.211984694E0,3.427000046E0,1.223200035E1,5.860000253E-1
8.231984694E0,1.894999981E0,1.025899982E1,1.083999991E0
8.251984694E0,6.119999886E-1,7.903999805E0,1.467000008E0
8.271984694E0,-3.799999878E-2,6.295000076E0,1.371000051E0
8.291984694E0,-1.529999971E-1,5.586999893E0,6.629999876E-1
8.311984694E0,9.499999881E-2,6.142000198E0,9.689999819E-1
8.331984694E0,2.870000005E-1,7.309999943E0,1.276000023E0
8.351984694E0,-7.599999756E-2,8.076000214E0,1.389999986E0
8.371984694E0,-4.589999914E-1,7.922999859E0,1.773000002E0
8.391984694E0,-7.850000262E-1,7.539999962E0,2.213999987E0
8.411984694E0,-8.040000200E-1,7.501999855E0,2.385999918E0
8.431984694E0,-6.129999757E-1,8.171999931E0,2.385999918E0
8.451984694E0,-4.210000038E-1,9.244000435E0,2.519999981E0
8.471984694E0,3.440000117E-1,1.004899979E1,2.444000006E0
8.491984694E0,1.396999955E0,1.089099979E1,2.539000034E0
8.511984694E0,1.972000003E0,1.123600006E1,2.367000103E0
8.531984694E0,2.290000021E-1,1.135099983E1,2.213999987E0
8.551984694E0,-1.513000011E0,1.290200043E1,2.999000072E0
8.571984694E0,-1.378000021E0,1.445300007E1,1.103000045E0
8.591984694E0,-3.829999864E-1,1.744000053E1,4.664999962E0
8.611984694E0,6.119999886E-1,1.500800037E1,1.524000049E0
8.631984694E0,-8.420000076E-1,1.179100037E1,3.099999949E-2
8.651984694E0,-2.392999887E0,6.811999798E0,5.479999781E-1
8.671984694E0,-1.876000047E0,2.790999889E0,-1.748999953E0
8.691984694E0,-3.639999926E-1,3.326999903E0,-3.319000006E0
8.711984694E0,1.281999946E0,6.409999847E0,-1.633999944E0
8.731984694E0,6.690000296E-1,9.454999924E0,1.840000004E-1
8.751984694E0,-2.029999971E0,1.186800003E1,1.141999960E0
8.771984694E0,-4.385000229E0,1.198299980E1,1.868999958E0
8.791984694E0,-3.101999998E0,9.109999657E0,1.773000002E0
8.811984694E0,-1.909999996E-1,7.578000069E0,1.677999973E0
8.831984694E0,1.817999959E0,6.755000114E0,9.689999819E-1
8.851984694E0,2.066999912E0,6.793000221E0,-1.019999981E-1
8.871984694E0,1.148000002E0,7.980999947E0,-2.549999952E-1
8.891984694E0,8.230000138E-1,8.994999886E0,2.989999950E-1
8.911984694E0,1.090999961E0,9.187000275E0,1.046000004E0
8.931984694E0,1.932999969E0,8.517000198E0,1.409999967E0
8.951984694E0,2.851999998E0,7.808000088E0,1.389999986E0
8.971984694E0,3.446000099E0,7.673999786E0,1.276000023E0
8.991984694E0,3.082000017E0,8.095000267E0,1.199000001E0
9.011984694E0,1.894999981E0,8.842000008E0,1.332999945E0
9.031984694E0,5.740000010E-1,9.626999855E0,1.600999951E0
9.051984694E0,-4.399999976E-1,1.062300014E1,8.349999785E-1
9.071984694E0,1.720000058E-1,1.138899994E1,1.332999945E0
9.091984694E0,3.006000042E0,1.100599957E1,2.482000113E0
9.111984694E0,4.748000145E0,1.140799999E1,-8.679999709E-1
9.131984694E0,4.327000141E0,1.454899979E1,3.370000124E-1
9.151984694E0,9.760000110E-1,1.667399979E1,1.812000036E0
9.171984694E0,-5.700000003E-2,1.387800026E1,8.539999723E-1
9.191984694E0,-7.599999756E-2,1.115900040E1,-2.418999910E0
9.211984694E0,-2.604000092E0,8.057000160E0,-4.583000183E0
9.231984694E0,-3.177999973E0,6.315000057E0,-1.883000016E0
9.251984694E0,-1.838000059E0,7.195000172E0,1.753999949E0
9.271984694E0,9.570000172E-1,9.034000397E0,2.328999996E0
9.291984694E0,2.891000032E0,1.002900028E1,1.639000058E0
9.311984694E0,2.795000076E0,1.112100029E1,1.161000013E0
9.331984694E0,1.914000034E0,1.058500004E1,1.218000054E0
9.351984694E0,4.779999852E-1,8.133999825E0,1.715999961E0
9.371984694E0,-2.680000067E-1,6.583000183E0,1.314000010E0
9.391984694E0,-6.510000229E-1,5.988999844E0,9.499999881E-1
9.411984694E0,-4.979999959E-1,6.237999916E0,1.121999979E0
9.431984694E0,-3.799999878E-2,7.328999996E0,1.715999961E0
9.451984694E0,-1.720000058E-1,8.267999649E0,1.697000027E0
9.471984694E0,-5.360000134E-1,8.383000374E0,1.735000014E0
9.491984694E0,-6.129999757E-1,7.960999966E0,2.118000031E0
9.511984694E0,-4.210000038E-1,7.578000069E0,2.826999903E0
9.531984694E0,-9.499999881E-2,7.711999893E0,3.210000038E0
9.551984694E0,1.330000013E-1,8.477999687E0,3.477999926E0
9.571984694E0,4.779999852E-1,9.416999817E0,3.783999920E0
9.591984694E0,5.159999728E-1,1.033600044E1,2.634999990E0
9.611984694E0,1.493000031E0,1.110200024E1,3.229000092E0
9.631984694E0,2.066999912E0,1.163799953E1,3.553999901E0
9.651984694E0,-3.440000117E-1,1.238500023E1,1.639000058E0
9.671984694E0,-1.149000049E0,1.481700039E1,1.065000057E0
9.691984694E0,-3.581000090E0,1.812999916E1,4.989999771E0
9.711984694E0,-3.312999964E0,1.730599976E1,2.800000012E-1
9.731984694E0,-3.217000008E0,1.360999966E1,-1.209999993E-1
9.751984694E0,-3.043999910E0,6.046000004E0,-1.805999994E0
9.771984694E0,-1.741999984E0,3.441999912E0,-2.572000027E0
9.791984694E0,9.499999881E-2,3.653000116E0,-1.672000051E0
9.811984694E0,1.493000031E0,5.663000107E0,-1.599999964E-1
9.831984694E0,3.440000117E-1,8.631999969E0,7.969999909E-1
9.851984694E0,-1.666000009E0,1.125500011E1,1.218000054E0
9.871984694E0,-2.756999969E0,1.140799999E1,7.590000033E-1
9.891984694E0,-8.230000138E-1,9.550999641E0,3.759999871E-1
9.911984694E0,1.187000036E0,8.057000160E0,-6.400000304E-2
9.931984694E0,2.029000044E0,7.578000069E0,-4.500000179E-2
9.951984694E0,2.565000057E0,7.215000153E0,2.029999942E-1
9.971984694E0,2.259000063E0,7.348999977E0,4.519999921E-1
9.991984694E0,1.243999958E0,8.133999825E0,6.439999938E-1
